SpectraSuite Data File
++++++++++++++++++++++++++++++++++++
Date: Mon May 06 13:24:27 CDT 2013
User: Students
Dark Spectrum Present: Yes
Reference Spectrum Present: Yes
Number of Sampled Component Spectra: 1
Spectrometers: USB4H00887
Integration Time (usec): 50000 (USB4H00887)
Spectra Averaged: 10 (USB4H00887)
Boxcar Smoothing: 5 (USB4H00887)
Correct for Electrical Dark: No (USB4H00887)
Strobe/Lamp Enabled: No (USB4H00887)
Correct for Detector Non-linearity: No (USB4H00887)
Correct for Stray Light: No (USB4H00887)
Number of Pixels in Processed Spectrum: 3648
>>>>>Begin Processed Spectral Data<<<<<
345.83	-0.129
346.05	-0.129
346.26	-0.129
346.48	0.637
346.70	-0.000
346.92	-0.429
347.14	-0.341
347.35	-0.300
347.57	-0.287
347.79	-0.207
348.01	-0.258
348.23	-0.277
348.44	-0.347
348.66	-0.167
348.88	0.000
349.10	-0.049
349.32	-0.048
349.53	0.028
349.75	-0.003
349.97	-0.028
350.19	-0.041
350.41	-0.063
350.62	-0.034
350.84	-0.054
351.06	-0.049
351.28	-0.062
351.50	-0.057
351.71	-0.057
351.93	-0.106
352.15	-0.089
352.37	-0.127
352.58	-0.115
352.80	-0.126
353.02	-0.125
353.24	-0.135
353.46	-0.171
353.67	-0.230
353.89	-0.171
354.11	-0.125
354.33	-0.133
354.54	-0.153
354.76	-0.096
354.98	-0.087
355.20	-0.093
355.41	-0.082
355.63	-0.048
355.85	-0.047
356.07	-0.031
356.28	-0.061
356.50	-0.075
356.72	-0.065
356.94	-0.043
357.15	-0.033
357.37	-0.064
357.59	-0.040
357.81	-0.074
358.02	-0.070
358.24	-0.013
358.46	-0.018
358.68	-0.025
358.89	-0.048
359.11	-0.060
359.33	-0.076
359.55	-0.103
359.76	-0.077
359.98	-0.053
360.20	-0.035
360.42	-0.054
360.63	-0.095
360.85	-0.043
361.07	-0.011
361.29	0.010
361.50	-0.007
361.72	-0.019
361.94	-0.020
362.15	-0.033
362.37	-0.045
362.59	-0.044
362.81	-0.048
363.02	-0.058
363.24	-0.083
363.46	-0.069
363.68	-0.085
363.89	-0.048
364.11	-0.045
364.33	-0.027
364.54	0.008
364.76	-0.008
364.98	-0.024
365.20	-0.014
365.41	0.010
365.63	0.009
365.85	-0.035
366.06	-0.020
366.28	-0.032
366.50	-0.012
366.71	-0.015
366.93	-0.025
367.15	0.024
367.37	0.028
367.58	0.004
367.80	0.022
368.02	0.033
368.23	0.053
368.45	0.039
368.67	0.069
368.88	0.066
369.10	0.069
369.32	0.056
369.53	0.026
369.75	0.033
369.97	0.054
370.19	0.006
370.40	0.014
370.62	0.018
370.84	0.021
371.05	0.011
371.27	0.033
371.49	0.049
371.70	0.084
371.92	0.079
372.14	0.061
372.35	0.061
372.57	0.094
372.79	0.065
373.00	0.014
373.22	0.028
373.44	-0.004
373.65	0.013
373.87	0.021
374.09	-0.032
374.30	-0.055
374.52	-0.010
374.74	0.029
374.95	0.004
375.17	0.013
375.39	0.066
375.60	0.050
375.82	0.037
376.04	0.001
376.25	-0.018
376.47	0.010
376.68	0.018
376.90	-0.004
377.12	-0.034
377.33	-0.033
377.55	-0.008
377.77	-0.033
377.98	0.002
378.20	0.045
378.42	0.072
378.63	0.086
378.85	0.104
379.07	0.124
379.28	0.114
379.50	0.108
379.71	0.119
379.93	0.109
380.15	0.121
380.36	0.094
380.58	0.099
380.80	0.092
381.01	0.101
381.23	0.103
381.44	0.098
381.66	0.117
381.88	0.127
382.09	0.123
382.31	0.119
382.53	0.106
382.74	0.132
382.96	0.113
383.17	0.109
383.39	0.094
383.61	0.094
383.82	0.096
384.04	0.118
384.25	0.131
384.47	0.139
384.69	0.156
384.90	0.142
385.12	0.134
385.33	0.150
385.55	0.158
385.77	0.150
385.98	0.107
386.20	0.102
386.41	0.079
386.63	0.086
386.85	0.084
387.06	0.074
387.28	0.110
387.49	0.106
387.71	0.115
387.93	0.122
388.14	0.120
388.36	0.141
388.57	0.146
388.79	0.145
389.01	0.156
389.22	0.160
389.44	0.191
389.65	0.188
389.87	0.213
390.08	0.216
390.30	0.226
390.52	0.247
390.73	0.243
390.95	0.232
391.16	0.232
391.38	0.222
391.59	0.217
391.81	0.181
392.03	0.198
392.24	0.193
392.46	0.179
392.67	0.183
392.89	0.157
393.10	0.174
393.32	0.189
393.53	0.216
393.75	0.206
393.97	0.224
394.18	0.245
394.40	0.235
394.61	0.229
394.83	0.234
395.04	0.229
395.26	0.262
395.47	0.257
395.69	0.270
395.91	0.257
396.12	0.263
396.34	0.254
396.55	0.241
396.77	0.228
396.98	0.227
397.20	0.227
397.41	0.219
397.63	0.222
397.84	0.218
398.06	0.200
398.27	0.190
398.49	0.194
398.71	0.198
398.92	0.210
399.14	0.219
399.35	0.215
399.57	0.214
399.78	0.214
400.00	0.207
400.21	0.202
400.43	0.221
400.64	0.231
400.86	0.229
401.07	0.226
401.29	0.223
401.50	0.223
401.72	0.224
401.93	0.222
402.15	0.224
402.36	0.213
402.58	0.219
402.79	0.217
403.01	0.212
403.22	0.225
403.44	0.239
403.65	0.240
403.87	0.232
404.08	0.239
404.30	0.245
404.51	0.252
404.73	0.266
404.94	0.275
405.16	0.282
405.37	0.284
405.59	0.280
405.80	0.258
406.02	0.257
406.23	0.264
406.45	0.268
406.66	0.270
406.88	0.261
407.09	0.260
407.31	0.260
407.52	0.245
407.74	0.251
407.95	0.259
408.17	0.272
408.38	0.282
408.60	0.283
408.81	0.271
409.03	0.264
409.24	0.270
409.45	0.269
409.67	0.266
409.88	0.268
410.10	0.269
410.31	0.265
410.53	0.275
410.74	0.285
410.96	0.275
411.17	0.284
411.39	0.285
411.60	0.283
411.82	0.283
412.03	0.288
412.24	0.303
412.46	0.303
412.67	0.304
412.89	0.292
413.10	0.289
413.32	0.304
413.53	0.308
413.75	0.319
413.96	0.318
414.17	0.319
414.39	0.310
414.60	0.306
414.82	0.318
415.03	0.316
415.25	0.325
415.46	0.320
415.68	0.326
415.89	0.316
416.10	0.327
416.32	0.330
416.53	0.324
416.75	0.325
416.96	0.315
417.18	0.309
417.39	0.305
417.60	0.309
417.82	0.310
418.03	0.302
418.25	0.311
418.46	0.296
418.67	0.297
418.89	0.310
419.10	0.310
419.32	0.312
419.53	0.313
419.75	0.320
419.96	0.314
420.17	0.312
420.39	0.321
420.60	0.320
420.82	0.330
421.03	0.332
421.24	0.326
421.46	0.329
421.67	0.332
421.89	0.328
422.10	0.316
422.31	0.310
422.53	0.305
422.74	0.304
422.96	0.303
423.17	0.295
423.38	0.296
423.60	0.297
423.81	0.295
424.03	0.295
424.24	0.287
424.45	0.290
424.67	0.292
424.88	0.289
425.09	0.275
425.31	0.268
425.52	0.267
425.74	0.264
425.95	0.264
426.16	0.265
426.38	0.264
426.59	0.278
426.80	0.289
427.02	0.292
427.23	0.302
427.45	0.312
427.66	0.314
427.87	0.313
428.09	0.312
428.30	0.316
428.51	0.312
428.73	0.317
428.94	0.310
429.15	0.302
429.37	0.303
429.58	0.304
429.79	0.308
430.01	0.314
430.22	0.318
430.44	0.320
430.65	0.315
430.86	0.314
431.08	0.310
431.29	0.315
431.50	0.314
431.72	0.312
431.93	0.305
432.14	0.299
432.36	0.298
432.57	0.298
432.78	0.300
433.00	0.305
433.21	0.313
433.42	0.310
433.64	0.304
433.85	0.310
434.06	0.310
434.28	0.314
434.49	0.321
434.70	0.312
434.92	0.308
435.13	0.313
435.34	0.310
435.56	0.303
435.77	0.300
435.98	0.305
436.20	0.301
436.41	0.299
436.62	0.299
436.83	0.295
437.05	0.301
437.26	0.301
437.47	0.296
437.69	0.293
437.90	0.299
438.11	0.300
438.33	0.301
438.54	0.303
438.75	0.304
438.97	0.303
439.18	0.300
439.39	0.304
439.60	0.307
439.82	0.305
440.03	0.306
440.24	0.301
440.46	0.303
440.67	0.301
440.88	0.297
441.10	0.295
441.31	0.298
441.52	0.296
441.73	0.291
441.95	0.287
442.16	0.287
442.37	0.286
442.58	0.287
442.80	0.282
443.01	0.280
443.22	0.283
443.44	0.282
443.65	0.279
443.86	0.278
444.07	0.281
444.29	0.281
444.50	0.277
444.71	0.281
444.92	0.276
445.14	0.282
445.35	0.283
445.56	0.283
445.78	0.283
445.99	0.284
446.20	0.284
446.41	0.280
446.63	0.282
446.84	0.285
447.05	0.277
447.26	0.283
447.48	0.277
447.69	0.276
447.90	0.273
448.11	0.278
448.33	0.275
448.54	0.273
448.75	0.274
448.96	0.276
449.18	0.275
449.39	0.276
449.60	0.275
449.81	0.274
450.03	0.269
450.24	0.267
450.45	0.260
450.66	0.260
450.87	0.263
451.09	0.265
451.30	0.262
451.51	0.264
451.72	0.264
451.94	0.263
452.15	0.264
452.36	0.267
452.57	0.269
452.78	0.269
453.00	0.268
453.21	0.268
453.42	0.265
453.63	0.267
453.85	0.266
454.06	0.266
454.27	0.266
454.48	0.267
454.69	0.270
454.91	0.270
455.12	0.275
455.33	0.274
455.54	0.276
455.75	0.278
455.97	0.275
456.18	0.273
456.39	0.271
456.60	0.269
456.81	0.269
457.03	0.267
457.24	0.267
457.45	0.262
457.66	0.264
457.87	0.261
458.09	0.261
458.30	0.263
458.51	0.266
458.72	0.267
458.93	0.270
459.15	0.273
459.36	0.273
459.57	0.272
459.78	0.273
459.99	0.275
460.20	0.276
460.42	0.274
460.63	0.274
460.84	0.273
461.05	0.273
461.26	0.270
461.47	0.268
461.69	0.267
461.90	0.269
462.11	0.271
462.32	0.269
462.53	0.269
462.74	0.269
462.96	0.270
463.17	0.268
463.38	0.270
463.59	0.270
463.80	0.269
464.01	0.267
464.23	0.265
464.44	0.262
464.65	0.262
464.86	0.262
465.07	0.262
465.28	0.265
465.49	0.265
465.71	0.265
465.92	0.265
466.13	0.266
466.34	0.269
466.55	0.272
466.76	0.273
466.97	0.273
467.19	0.272
467.40	0.272
467.61	0.269
467.82	0.270
468.03	0.271
468.24	0.269
468.45	0.270
468.66	0.270
468.88	0.270
469.09	0.270
469.30	0.269
469.51	0.271
469.72	0.270
469.93	0.273
470.14	0.273
470.35	0.273
470.57	0.276
470.78	0.275
470.99	0.273
471.20	0.273
471.41	0.272
471.62	0.272
471.83	0.271
472.04	0.274
472.25	0.274
472.47	0.273
472.68	0.272
472.89	0.270
473.10	0.269
473.31	0.269
473.52	0.270
473.73	0.270
473.94	0.272
474.15	0.271
474.36	0.270
474.57	0.270
474.79	0.270
475.00	0.271
475.21	0.272
475.42	0.274
475.63	0.275
475.84	0.274
476.05	0.273
476.26	0.271
476.47	0.270
476.68	0.271
476.89	0.271
477.10	0.272
477.32	0.271
477.53	0.271
477.74	0.269
477.95	0.268
478.16	0.267
478.37	0.268
478.58	0.269
478.79	0.269
479.00	0.267
479.21	0.267
479.42	0.266
479.63	0.266
479.84	0.266
480.05	0.265
480.26	0.266
480.47	0.265
480.69	0.264
480.90	0.264
481.11	0.264
481.32	0.263
481.53	0.262
481.74	0.260
481.95	0.260
482.16	0.258
482.37	0.259
482.58	0.259
482.79	0.258
483.00	0.259
483.21	0.258
483.42	0.258
483.63	0.258
483.84	0.259
484.05	0.259
484.26	0.258
484.47	0.259
484.68	0.258
484.89	0.257
485.10	0.257
485.31	0.256
485.52	0.257
485.73	0.255
485.94	0.255
486.15	0.255
486.37	0.254
486.58	0.254
486.79	0.252
487.00	0.252
487.21	0.252
487.42	0.251
487.63	0.251
487.84	0.249
488.05	0.250
488.26	0.249
488.47	0.248
488.68	0.247
488.89	0.247
489.10	0.247
489.31	0.246
489.52	0.246
489.73	0.247
489.94	0.247
490.15	0.247
490.36	0.245
490.57	0.245
490.78	0.244
490.99	0.243
491.20	0.242
491.41	0.241
491.62	0.242
491.83	0.242
492.04	0.241
492.25	0.240
492.45	0.239
492.66	0.238
492.87	0.238
493.08	0.237
493.29	0.237
493.50	0.236
493.71	0.236
493.92	0.234
494.13	0.234
494.34	0.233
494.55	0.233
494.76	0.232
494.97	0.233
495.18	0.232
495.39	0.232
495.60	0.232
495.81	0.232
496.02	0.231
496.23	0.230
496.44	0.229
496.65	0.229
496.86	0.229
497.07	0.229
497.28	0.228
497.49	0.228
497.70	0.228
497.91	0.227
498.12	0.228
498.32	0.228
498.53	0.228
498.74	0.227
498.95	0.227
499.16	0.226
499.37	0.226
499.58	0.226
499.79	0.226
500.00	0.226
500.21	0.226
500.42	0.225
500.63	0.224
500.84	0.223
501.05	0.223
501.26	0.223
501.46	0.223
501.67	0.222
501.88	0.220
502.09	0.219
502.30	0.218
502.51	0.218
502.72	0.218
502.93	0.218
503.14	0.217
503.35	0.216
503.56	0.216
503.77	0.215
503.97	0.214
504.18	0.214
504.39	0.214
504.60	0.215
504.81	0.214
505.02	0.213
505.23	0.213
505.44	0.212
505.65	0.212
505.86	0.212
506.07	0.212
506.27	0.210
506.48	0.210
506.69	0.210
506.90	0.209
507.11	0.208
507.32	0.208
507.53	0.208
507.74	0.207
507.95	0.206
508.15	0.206
508.36	0.206
508.57	0.207
508.78	0.206
508.99	0.205
509.20	0.205
509.41	0.204
509.62	0.204
509.82	0.204
510.03	0.203
510.24	0.202
510.45	0.202
510.66	0.201
510.87	0.200
511.08	0.200
511.29	0.199
511.49	0.198
511.70	0.197
511.91	0.196
512.12	0.195
512.33	0.195
512.54	0.195
512.75	0.194
512.95	0.193
513.16	0.192
513.37	0.191
513.58	0.190
513.79	0.189
514.00	0.188
514.20	0.187
514.41	0.186
514.62	0.185
514.83	0.184
515.04	0.183
515.25	0.183
515.46	0.182
515.66	0.181
515.87	0.180
516.08	0.180
516.29	0.180
516.50	0.178
516.71	0.177
516.91	0.176
517.12	0.175
517.33	0.174
517.54	0.173
517.75	0.172
517.95	0.171
518.16	0.170
518.37	0.168
518.58	0.166
518.79	0.166
519.00	0.165
519.20	0.164
519.41	0.163
519.62	0.162
519.83	0.161
520.04	0.160
520.24	0.158
520.45	0.157
520.66	0.157
520.87	0.155
521.08	0.154
521.28	0.153
521.49	0.151
521.70	0.150
521.91	0.148
522.12	0.147
522.32	0.146
522.53	0.145
522.74	0.143
522.95	0.143
523.16	0.142
523.36	0.141
523.57	0.139
523.78	0.138
523.99	0.137
524.20	0.135
524.40	0.135
524.61	0.133
524.82	0.132
525.03	0.130
525.23	0.128
525.44	0.127
525.65	0.126
525.86	0.125
526.06	0.124
526.27	0.122
526.48	0.122
526.69	0.121
526.90	0.120
527.10	0.118
527.31	0.117
527.52	0.116
527.73	0.115
527.93	0.114
528.14	0.112
528.35	0.111
528.56	0.110
528.76	0.108
528.97	0.106
529.18	0.105
529.39	0.104
529.59	0.103
529.80	0.102
530.01	0.101
530.22	0.100
530.42	0.098
530.63	0.097
530.84	0.095
531.05	0.095
531.25	0.094
531.46	0.092
531.67	0.091
531.88	0.089
532.08	0.088
532.29	0.087
532.50	0.085
532.70	0.084
532.91	0.083
533.12	0.082
533.33	0.081
533.53	0.080
533.74	0.079
533.95	0.078
534.15	0.077
534.36	0.076
534.57	0.075
534.78	0.074
534.98	0.073
535.19	0.072
535.40	0.071
535.60	0.070
535.81	0.069
536.02	0.068
536.23	0.067
536.43	0.066
536.64	0.065
536.85	0.065
537.05	0.063
537.26	0.062
537.47	0.061
537.67	0.060
537.88	0.059
538.09	0.058
538.30	0.058
538.50	0.057
538.71	0.055
538.92	0.055
539.12	0.054
539.33	0.053
539.54	0.052
539.74	0.051
539.95	0.051
540.16	0.050
540.36	0.049
540.57	0.048
540.78	0.047
540.98	0.046
541.19	0.045
541.40	0.044
541.60	0.044
541.81	0.043
542.02	0.042
542.22	0.042
542.43	0.041
542.64	0.041
542.84	0.040
543.05	0.040
543.26	0.039
543.46	0.038
543.67	0.038
543.88	0.038
544.08	0.037
544.29	0.036
544.50	0.036
544.70	0.035
544.91	0.034
545.12	0.034
545.32	0.033
545.53	0.032
545.74	0.032
545.94	0.031
546.15	0.031
546.35	0.030
546.56	0.030
546.77	0.029
546.97	0.028
547.18	0.028
547.39	0.028
547.59	0.028
547.80	0.027
548.01	0.027
548.21	0.026
548.42	0.027
548.62	0.027
548.83	0.026
549.04	0.026
549.24	0.026
549.45	0.025
549.65	0.025
549.86	0.025
550.07	0.025
550.27	0.024
550.48	0.024
550.69	0.024
550.89	0.024
551.10	0.023
551.30	0.023
551.51	0.023
551.72	0.023
551.92	0.022
552.13	0.022
552.33	0.022
552.54	0.021
552.75	0.021
552.95	0.021
553.16	0.020
553.36	0.020
553.57	0.019
553.78	0.019
553.98	0.018
554.19	0.018
554.39	0.018
554.60	0.018
554.80	0.018
555.01	0.018
555.22	0.018
555.42	0.018
555.63	0.017
555.83	0.017
556.04	0.018
556.25	0.018
556.45	0.018
556.66	0.018
556.86	0.018
557.07	0.018
557.27	0.018
557.48	0.018
557.68	0.017
557.89	0.017
558.10	0.017
558.30	0.017
558.51	0.017
558.71	0.016
558.92	0.016
559.12	0.016
559.33	0.015
559.54	0.015
559.74	0.015
559.95	0.015
560.15	0.015
560.36	0.015
560.56	0.015
560.77	0.014
560.97	0.014
561.18	0.015
561.38	0.015
561.59	0.015
561.79	0.015
562.00	0.016
562.21	0.015
562.41	0.015
562.62	0.014
562.82	0.014
563.03	0.014
563.23	0.014
563.44	0.014
563.64	0.013
563.85	0.013
564.05	0.013
564.26	0.013
564.46	0.013
564.67	0.013
564.87	0.014
565.08	0.014
565.28	0.014
565.49	0.014
565.69	0.014
565.90	0.014
566.10	0.014
566.31	0.014
566.51	0.013
566.72	0.014
566.92	0.014
567.13	0.013
567.33	0.013
567.54	0.013
567.74	0.013
567.95	0.013
568.15	0.013
568.36	0.014
568.56	0.013
568.77	0.014
568.97	0.014
569.18	0.014
569.38	0.013
569.59	0.014
569.79	0.013
570.00	0.013
570.20	0.012
570.41	0.012
570.61	0.012
570.82	0.013
571.02	0.012
571.23	0.012
571.43	0.012
571.64	0.012
571.84	0.012
572.05	0.012
572.25	0.013
572.45	0.013
572.66	0.013
572.86	0.013
573.07	0.013
573.27	0.013
573.48	0.013
573.68	0.013
573.89	0.013
574.09	0.014
574.30	0.014
574.50	0.013
574.70	0.012
574.91	0.012
575.11	0.012
575.32	0.012
575.52	0.012
575.73	0.012
575.93	0.012
576.14	0.012
576.34	0.012
576.54	0.011
576.75	0.012
576.95	0.012
577.16	0.012
577.36	0.012
577.57	0.012
577.77	0.012
577.97	0.012
578.18	0.011
578.38	0.012
578.59	0.012
578.79	0.012
579.00	0.012
579.20	0.012
579.40	0.012
579.61	0.012
579.81	0.012
580.02	0.012
580.22	0.012
580.42	0.012
580.63	0.012
580.83	0.012
581.04	0.012
581.24	0.012
581.45	0.012
581.65	0.012
581.85	0.012
582.06	0.012
582.26	0.012
582.47	0.012
582.67	0.012
582.87	0.012
583.08	0.012
583.28	0.012
583.48	0.012
583.69	0.012
583.89	0.013
584.10	0.013
584.30	0.012
584.50	0.013
584.71	0.013
584.91	0.013
585.12	0.012
585.32	0.012
585.52	0.012
585.73	0.012
585.93	0.012
586.13	0.012
586.34	0.011
586.54	0.011
586.75	0.011
586.95	0.011
587.15	0.011
587.36	0.011
587.56	0.011
587.76	0.011
587.97	0.011
588.17	0.011
588.37	0.011
588.58	0.011
588.78	0.012
588.98	0.012
589.19	0.012
589.39	0.011
589.60	0.011
589.80	0.012
590.00	0.012
590.21	0.012
590.41	0.012
590.61	0.012
590.82	0.012
591.02	0.011
591.22	0.011
591.43	0.011
591.63	0.011
591.83	0.011
592.04	0.011
592.24	0.010
592.44	0.010
592.65	0.010
592.85	0.010
593.05	0.010
593.26	0.010
593.46	0.010
593.66	0.010
593.86	0.010
594.07	0.010
594.27	0.010
594.47	0.011
594.68	0.010
594.88	0.010
595.08	0.010
595.29	0.010
595.49	0.010
595.69	0.010
595.90	0.010
596.10	0.010
596.30	0.010
596.50	0.010
596.71	0.010
596.91	0.010
597.11	0.010
597.32	0.010
597.52	0.010
597.72	0.010
597.93	0.011
598.13	0.011
598.33	0.011
598.53	0.011
598.74	0.011
598.94	0.011
599.14	0.011
599.35	0.011
599.55	0.012
599.75	0.012
599.95	0.012
600.16	0.012
600.36	0.011
600.56	0.011
600.76	0.011
600.97	0.011
601.17	0.012
601.37	0.011
601.58	0.011
601.78	0.011
601.98	0.011
602.18	0.010
602.39	0.010
602.59	0.010
602.79	0.010
602.99	0.010
603.20	0.010
603.40	0.009
603.60	0.010
603.80	0.010
604.01	0.010
604.21	0.010
604.41	0.010
604.61	0.010
604.82	0.010
605.02	0.010
605.22	0.010
605.42	0.010
605.62	0.011
605.83	0.011
606.03	0.010
606.23	0.011
606.43	0.011
606.64	0.011
606.84	0.011
607.04	0.011
607.24	0.011
607.45	0.011
607.65	0.011
607.85	0.011
608.05	0.011
608.25	0.011
608.46	0.011
608.66	0.011
608.86	0.011
609.06	0.011
609.26	0.011
609.47	0.011
609.67	0.011
609.87	0.011
610.07	0.011
610.28	0.010
610.48	0.010
610.68	0.010
610.88	0.010
611.08	0.010
611.29	0.010
611.49	0.010
611.69	0.010
611.89	0.009
612.09	0.009
612.29	0.009
612.50	0.009
612.70	0.009
612.90	0.009
613.10	0.009
613.30	0.010
613.51	0.010
613.71	0.010
613.91	0.010
614.11	0.011
614.31	0.010
614.51	0.010
614.72	0.011
614.92	0.011
615.12	0.011
615.32	0.011
615.52	0.011
615.72	0.011
615.93	0.011
616.13	0.010
616.33	0.010
616.53	0.011
616.73	0.011
616.93	0.010
617.14	0.010
617.34	0.010
617.54	0.010
617.74	0.010
617.94	0.010
618.14	0.010
618.34	0.010
618.55	0.011
618.75	0.010
618.95	0.011
619.15	0.011
619.35	0.011
619.55	0.011
619.75	0.011
619.96	0.011
620.16	0.011
620.36	0.011
620.56	0.010
620.76	0.010
620.96	0.010
621.16	0.010
621.36	0.010
621.57	0.010
621.77	0.010
621.97	0.010
622.17	0.010
622.37	0.010
622.57	0.010
622.77	0.011
622.97	0.011
623.18	0.011
623.38	0.011
623.58	0.011
623.78	0.011
623.98	0.011
624.18	0.011
624.38	0.011
624.58	0.011
624.78	0.011
624.98	0.011
625.19	0.011
625.39	0.011
625.59	0.011
625.79	0.011
625.99	0.010
626.19	0.010
626.39	0.010
626.59	0.010
626.79	0.010
626.99	0.010
627.19	0.010
627.40	0.011
627.60	0.010
627.80	0.010
628.00	0.010
628.20	0.011
628.40	0.011
628.60	0.011
628.80	0.010
629.00	0.010
629.20	0.010
629.40	0.010
629.60	0.010
629.80	0.010
630.00	0.010
630.20	0.011
630.41	0.010
630.61	0.010
630.81	0.010
631.01	0.010
631.21	0.010
631.41	0.010
631.61	0.010
631.81	0.010
632.01	0.010
632.21	0.010
632.41	0.010
632.61	0.010
632.81	0.010
633.01	0.010
633.21	0.010
633.41	0.010
633.61	0.010
633.81	0.010
634.01	0.010
634.21	0.010
634.41	0.010
634.61	0.010
634.81	0.010
635.01	0.010
635.22	0.010
635.42	0.010
635.62	0.010
635.82	0.010
636.02	0.010
636.22	0.010
636.42	0.010
636.62	0.010
636.82	0.010
637.02	0.010
637.22	0.010
637.42	0.010
637.62	0.010
637.82	0.010
638.02	0.010
638.22	0.010
638.42	0.010
638.62	0.010
638.82	0.010
639.02	0.010
639.22	0.010
639.42	0.010
639.62	0.010
639.82	0.010
640.02	0.010
640.22	0.010
640.42	0.010
640.62	0.010
640.82	0.010
641.02	0.010
641.22	0.011
641.42	0.011
641.61	0.011
641.81	0.011
642.01	0.011
642.21	0.011
642.41	0.011
642.61	0.011
642.81	0.011
643.01	0.010
643.21	0.011
643.41	0.010
643.61	0.010
643.81	0.010
644.01	0.010
644.21	0.010
644.41	0.010
644.61	0.009
644.81	0.009
645.01	0.009
645.21	0.010
645.41	0.009
645.61	0.009
645.81	0.009
646.01	0.009
646.21	0.010
646.40	0.010
646.60	0.010
646.80	0.011
647.00	0.011
647.20	0.010
647.40	0.010
647.60	0.010
647.80	0.011
648.00	0.010
648.20	0.010
648.40	0.010
648.60	0.010
648.80	0.010
649.00	0.010
649.20	0.010
649.39	0.010
649.59	0.010
649.79	0.010
649.99	0.009
650.19	0.010
650.39	0.010
650.59	0.009
650.79	0.009
650.99	0.010
651.19	0.010
651.39	0.010
651.58	0.010
651.78	0.010
651.98	0.010
652.18	0.010
652.38	0.010
652.58	0.010
652.78	0.010
652.98	0.010
653.18	0.010
653.38	0.010
653.57	0.010
653.77	0.010
653.97	0.011
654.17	0.010
654.37	0.011
654.57	0.011
654.77	0.011
654.97	0.011
655.16	0.011
655.36	0.011
655.56	0.011
655.76	0.010
655.96	0.010
656.16	0.010
656.36	0.009
656.56	0.009
656.75	0.009
656.95	0.009
657.15	0.009
657.35	0.009
657.55	0.010
657.75	0.010
657.95	0.010
658.14	0.010
658.34	0.010
658.54	0.010
658.74	0.010
658.94	0.010
659.14	0.010
659.34	0.010
659.53	0.010
659.73	0.010
659.93	0.010
660.13	0.010
660.33	0.010
660.53	0.010
660.72	0.010
660.92	0.010
661.12	0.010
661.32	0.010
661.52	0.010
661.72	0.010
661.91	0.010
662.11	0.009
662.31	0.009
662.51	0.009
662.71	0.009
662.90	0.009
663.10	0.009
663.30	0.009
663.50	0.009
663.70	0.009
663.90	0.009
664.09	0.009
664.29	0.009
664.49	0.009
664.69	0.009
664.89	0.009
665.08	0.009
665.28	0.010
665.48	0.010
665.68	0.010
665.88	0.010
666.07	0.010
666.27	0.010
666.47	0.010
666.67	0.010
666.87	0.010
667.06	0.010
667.26	0.010
667.46	0.009
667.66	0.009
667.85	0.009
668.05	0.009
668.25	0.010
668.45	0.010
668.65	0.010
668.84	0.010
669.04	0.009
669.24	0.009
669.44	0.009
669.63	0.009
669.83	0.010
670.03	0.009
670.23	0.009
670.42	0.009
670.62	0.009
670.82	0.009
671.02	0.009
671.22	0.009
671.41	0.009
671.61	0.009
671.81	0.009
672.01	0.009
672.20	0.009
672.40	0.009
672.60	0.009
672.80	0.009
672.99	0.009
673.19	0.009
673.39	0.009
673.58	0.010
673.78	0.010
673.98	0.010
674.18	0.010
674.37	0.010
674.57	0.010
674.77	0.009
674.97	0.009
675.16	0.009
675.36	0.009
675.56	0.009
675.75	0.009
675.95	0.008
676.15	0.008
676.35	0.008
676.54	0.009
676.74	0.009
676.94	0.009
677.13	0.009
677.33	0.009
677.53	0.009
677.73	0.009
677.92	0.009
678.12	0.009
678.32	0.009
678.51	0.009
678.71	0.008
678.91	0.008
679.11	0.009
679.30	0.009
679.50	0.009
679.70	0.009
679.89	0.009
680.09	0.009
680.29	0.009
680.48	0.009
680.68	0.009
680.88	0.009
681.07	0.010
681.27	0.009
681.47	0.010
681.66	0.010
681.86	0.010
682.06	0.010
682.25	0.010
682.45	0.010
682.65	0.010
682.84	0.010
683.04	0.010
683.24	0.010
683.43	0.010
683.63	0.009
683.83	0.009
684.02	0.009
684.22	0.009
684.42	0.009
684.61	0.009
684.81	0.009
685.01	0.009
685.20	0.009
685.40	0.010
685.60	0.010
685.79	0.010
685.99	0.010
686.19	0.010
686.38	0.010
686.58	0.010
686.77	0.010
686.97	0.010
687.17	0.010
687.36	0.010
687.56	0.009
687.76	0.009
687.95	0.009
688.15	0.009
688.34	0.009
688.54	0.008
688.74	0.009
688.93	0.008
689.13	0.008
689.33	0.008
689.52	0.008
689.72	0.008
689.91	0.008
690.11	0.008
690.31	0.008
690.50	0.009
690.70	0.009
690.89	0.009
691.09	0.009
691.29	0.009
691.48	0.009
691.68	0.009
691.87	0.010
692.07	0.010
692.27	0.010
692.46	0.009
692.66	0.010
692.85	0.009
693.05	0.009
693.25	0.009
693.44	0.009
693.64	0.009
693.83	0.009
694.03	0.008
694.22	0.008
694.42	0.008
694.62	0.009
694.81	0.008
695.01	0.008
695.20	0.008
695.40	0.008
695.59	0.008
695.79	0.008
695.99	0.008
696.18	0.008
696.38	0.008
696.57	0.008
696.77	0.008
696.96	0.008
697.16	0.008
697.36	0.008
697.55	0.009
697.75	0.009
697.94	0.009
698.14	0.008
698.33	0.008
698.53	0.009
698.72	0.008
698.92	0.008
699.11	0.008
699.31	0.008
699.51	0.008
699.70	0.008
699.90	0.008
700.09	0.008
700.29	0.009
700.48	0.009
700.68	0.008
700.87	0.009
701.07	0.009
701.26	0.009
701.46	0.009
701.65	0.009
701.85	0.008
702.04	0.009
702.24	0.009
702.43	0.009
702.63	0.009
702.82	0.009
703.02	0.009
703.21	0.008
703.41	0.008
703.60	0.008
703.80	0.008
703.99	0.008
704.19	0.008
704.38	0.008
704.58	0.008
704.77	0.008
704.97	0.008
705.16	0.008
705.36	0.008
705.55	0.008
705.75	0.008
705.94	0.008
706.14	0.008
706.33	0.008
706.53	0.008
706.72	0.008
706.92	0.008
707.11	0.008
707.31	0.008
707.50	0.008
707.70	0.008
707.89	0.008
708.09	0.008
708.28	0.008
708.48	0.008
708.67	0.008
708.86	0.008
709.06	0.008
709.25	0.008
709.45	0.008
709.64	0.008
709.84	0.008
710.03	0.008
710.23	0.008
710.42	0.008
710.62	0.008
710.81	0.008
711.00	0.008
711.20	0.008
711.39	0.008
711.59	0.008
711.78	0.007
711.98	0.007
712.17	0.007
712.37	0.008
712.56	0.007
712.75	0.008
712.95	0.008
713.14	0.008
713.34	0.008
713.53	0.008
713.73	0.008
713.92	0.008
714.11	0.008
714.31	0.007
714.50	0.007
714.70	0.007
714.89	0.008
715.08	0.007
715.28	0.007
715.47	0.007
715.67	0.008
715.86	0.007
716.06	0.007
716.25	0.007
716.44	0.007
716.64	0.007
716.83	0.007
717.03	0.006
717.22	0.007
717.41	0.006
717.61	0.006
717.80	0.006
717.99	0.006
718.19	0.006
718.38	0.006
718.58	0.006
718.77	0.006
718.96	0.006
719.16	0.006
719.35	0.005
719.55	0.005
719.74	0.005
719.93	0.006
720.13	0.006
720.32	0.006
720.51	0.005
720.71	0.006
720.90	0.005
721.10	0.005
721.29	0.005
721.48	0.005
721.68	0.005
721.87	0.005
722.06	0.005
722.26	0.005
722.45	0.004
722.64	0.004
722.84	0.005
723.03	0.005
723.22	0.005
723.42	0.005
723.61	0.005
723.80	0.005
724.00	0.005
724.19	0.004
724.38	0.004
724.58	0.005
724.77	0.005
724.96	0.005
725.16	0.005
725.35	0.005
725.54	0.004
725.74	0.004
725.93	0.004
726.12	0.004
726.32	0.004
726.51	0.004
726.70	0.004
726.90	0.004
727.09	0.003
727.28	0.003
727.48	0.003
727.67	0.004
727.86	0.003
728.06	0.004
728.25	0.004
728.44	0.003
728.64	0.003
728.83	0.003
729.02	0.003
729.21	0.003
729.41	0.003
729.60	0.003
729.79	0.003
729.99	0.003
730.18	0.002
730.37	0.002
730.56	0.002
730.76	0.001
730.95	0.002
731.14	0.002
731.34	0.002
731.53	0.002
731.72	0.002
731.91	0.002
732.11	0.002
732.30	0.002
732.49	0.002
732.69	0.002
732.88	0.002
733.07	0.002
733.26	0.002
733.46	0.001
733.65	0.001
733.84	0.001
734.03	0.001
734.23	0.000
734.42	0.001
734.61	0.001
734.80	0.001
735.00	0.001
735.19	0.001
735.38	0.001
735.57	0.000
735.77	0.000
735.96	0.000
736.15	0.000
736.34	0.001
736.54	0.000
736.73	0.000
736.92	0.000
737.11	0.000
737.31	0.000
737.50	0.000
737.69	0.000
737.88	0.001
738.07	0.001
738.27	0.001
738.46	0.001
738.65	0.001
738.84	0.001
739.04	0.001
739.23	0.000
739.42	0.000
739.61	0.000
739.80	0.000
740.00	0.000
740.19	-0.000
740.38	-0.000
740.57	-0.000
740.76	-0.000
740.96	-0.000
741.15	0.000
741.34	0.000
741.53	0.001
741.72	0.001
741.92	0.000
742.11	0.000
742.30	0.001
742.49	0.001
742.68	0.001
742.88	0.001
743.07	0.001
743.26	0.001
743.45	0.001
743.64	0.000
743.84	0.000
744.03	0.001
744.22	0.001
744.41	0.001
744.60	0.001
744.79	0.001
744.99	0.001
745.18	0.001
745.37	0.001
745.56	0.000
745.75	0.001
745.94	0.001
746.14	0.001
746.33	0.001
746.52	0.001
746.71	0.001
746.90	0.001
747.09	0.001
747.28	0.001
747.48	0.001
747.67	0.002
747.86	0.002
748.05	0.002
748.24	0.001
748.43	0.001
748.62	0.002
748.82	0.002
749.01	0.002
749.20	0.001
749.39	0.002
749.58	0.002
749.77	0.002
749.96	0.002
750.16	0.002
750.35	0.002
750.54	0.002
750.73	0.003
750.92	0.003
751.11	0.003
751.30	0.003
751.49	0.003
751.68	0.003
751.88	0.003
752.07	0.002
752.26	0.002
752.45	0.002
752.64	0.002
752.83	0.002
753.02	0.002
753.21	0.002
753.40	0.002
753.60	0.002
753.79	0.002
753.98	0.002
754.17	0.003
754.36	0.003
754.55	0.003
754.74	0.003
754.93	0.003
755.12	0.003
755.31	0.003
755.50	0.003
755.70	0.003
755.89	0.003
756.08	0.004
756.27	0.004
756.46	0.004
756.65	0.004
756.84	0.004
757.03	0.004
757.22	0.004
757.41	0.004
757.60	0.005
757.79	0.005
757.98	0.005
758.17	0.004
758.36	0.004
758.56	0.004
758.75	0.004
758.94	0.005
759.13	0.004
759.32	0.004
759.51	0.004
759.70	0.004
759.89	0.004
760.08	0.004
760.27	0.004
760.46	0.004
760.65	0.004
760.84	0.004
761.03	0.004
761.22	0.003
761.41	0.004
761.60	0.003
761.79	0.004
761.98	0.004
762.17	0.004
762.36	0.004
762.55	0.004
762.74	0.004
762.93	0.004
763.12	0.004
763.31	0.004
763.50	0.004
763.69	0.005
763.88	0.004
764.07	0.004
764.26	0.004
764.45	0.004
764.64	0.004
764.83	0.004
765.02	0.004
765.21	0.004
765.40	0.004
765.59	0.003
765.78	0.003
765.97	0.003
766.16	0.003
766.35	0.003
766.54	0.003
766.73	0.003
766.92	0.002
767.11	0.003
767.30	0.003
767.49	0.002
767.68	0.002
767.87	0.002
768.06	0.002
768.25	0.002
768.44	0.001
768.63	0.001
768.82	0.001
769.01	0.001
769.20	0.001
769.39	0.000
769.58	0.000
769.77	0.000
769.96	0.000
770.15	0.001
770.34	0.001
770.53	0.001
770.72	0.001
770.91	0.001
771.10	0.001
771.29	0.001
771.47	0.001
771.66	0.002
771.85	0.002
772.04	0.002
772.23	0.001
772.42	0.001
772.61	0.001
772.80	0.001
772.99	0.001
773.18	0.001
773.37	0.001
773.56	0.001
773.75	0.001
773.94	0.001
774.13	0.001
774.31	0.001
774.50	0.001
774.69	0.001
774.88	0.001
775.07	0.001
775.26	0.001
775.45	0.001
775.64	0.001
775.83	0.001
776.02	0.000
776.21	0.000
776.40	0.000
776.58	0.000
776.77	0.000
776.96	0.000
777.15	0.000
777.34	0.000
777.53	0.000
777.72	0.000
777.91	-0.000
778.10	-0.000
778.28	-0.000
778.47	-0.001
778.66	-0.001
778.85	-0.000
779.04	-0.000
779.23	-0.000
779.42	-0.000
779.61	-0.000
779.79	-0.000
779.98	-0.000
780.17	-0.000
780.36	-0.000
780.55	-0.000
780.74	-0.000
780.93	-0.000
781.12	-0.000
781.30	0.000
781.49	-0.000
781.68	-0.000
781.87	-0.000
782.06	-0.000
782.25	-0.000
782.44	-0.000
782.62	-0.000
782.81	0.000
783.00	-0.000
783.19	-0.000
783.38	-0.000
783.57	-0.000
783.75	-0.000
783.94	-0.000
784.13	-0.000
784.32	-0.000
784.51	-0.000
784.70	0.000
784.88	-0.000
785.07	-0.000
785.26	0.000
785.45	0.000
785.64	0.000
785.83	0.000
786.01	-0.000
786.20	-0.000
786.39	-0.000
786.58	0.000
786.77	-0.000
786.95	-0.000
787.14	-0.000
787.33	-0.000
787.52	-0.000
787.71	-0.000
787.90	0.000
788.08	-0.000
788.27	-0.000
788.46	0.000
788.65	0.000
788.84	0.000
789.02	0.001
789.21	0.001
789.40	0.000
789.59	0.000
789.77	0.000
789.96	0.000
790.15	0.001
790.34	0.001
790.53	0.001
790.71	0.001
790.90	0.001
791.09	0.001
791.28	0.001
791.46	0.001
791.65	0.001
791.84	0.001
792.03	0.000
792.22	0.001
792.40	0.000
792.59	0.000
792.78	0.000
792.97	0.001
793.15	0.001
793.34	0.001
793.53	0.001
793.72	0.001
793.90	0.001
794.09	0.001
794.28	0.001
794.47	0.001
794.65	0.001
794.84	0.002
795.03	0.002
795.22	0.002
795.40	0.002
795.59	0.002
795.78	0.002
795.97	0.002
796.15	0.003
796.34	0.002
796.53	0.002
796.71	0.002
796.90	0.002
797.09	0.002
797.28	0.002
797.46	0.002
797.65	0.002
797.84	0.002
798.02	0.002
798.21	0.002
798.40	0.002
798.59	0.002
798.77	0.002
798.96	0.002
799.15	0.002
799.33	0.002
799.52	0.002
799.71	0.003
799.90	0.002
800.08	0.003
800.27	0.002
800.46	0.003
800.64	0.002
800.83	0.002
801.02	0.002
801.20	0.002
801.39	0.002
801.58	0.002
801.76	0.002
801.95	0.002
802.14	0.002
802.32	0.002
802.51	0.002
802.70	0.002
802.88	0.002
803.07	0.002
803.26	0.002
803.44	0.002
803.63	0.002
803.82	0.002
804.00	0.002
804.19	0.002
804.38	0.002
804.56	0.002
804.75	0.002
804.94	0.002
805.12	0.002
805.31	0.002
805.50	0.002
805.68	0.003
805.87	0.002
806.06	0.002
806.24	0.002
806.43	0.003
806.62	0.003
806.80	0.003
806.99	0.003
807.17	0.003
807.36	0.003
807.55	0.003
807.73	0.003
807.92	0.003
808.11	0.003
808.29	0.003
808.48	0.003
808.66	0.002
808.85	0.003
809.04	0.003
809.22	0.003
809.41	0.003
809.59	0.003
809.78	0.003
809.97	0.003
810.15	0.003
810.34	0.003
810.53	0.003
810.71	0.003
810.90	0.003
811.08	0.003
811.27	0.003
811.45	0.003
811.64	0.003
811.83	0.003
812.01	0.002
812.20	0.003
812.38	0.003
812.57	0.003
812.76	0.003
812.94	0.003
813.13	0.003
813.31	0.003
813.50	0.002
813.68	0.002
813.87	0.002
814.06	0.002
814.24	0.002
814.43	0.002
814.61	0.003
814.80	0.003
814.98	0.003
815.17	0.003
815.36	0.003
815.54	0.003
815.73	0.003
815.91	0.003
816.10	0.003
816.28	0.003
816.47	0.003
816.65	0.003
816.84	0.003
817.03	0.003
817.21	0.003
817.40	0.003
817.58	0.002
817.77	0.002
817.95	0.002
818.14	0.002
818.32	0.002
818.51	0.002
818.69	0.002
818.88	0.002
819.06	0.002
819.25	0.002
819.43	0.002
819.62	0.002
819.80	0.002
819.99	0.002
820.18	0.002
820.36	0.002
820.55	0.002
820.73	0.002
820.92	0.002
821.10	0.002
821.29	0.002
821.47	0.002
821.66	0.002
821.84	0.002
822.03	0.002
822.21	0.002
822.40	0.002
822.58	0.002
822.77	0.002
822.95	0.002
823.14	0.002
823.32	0.002
823.50	0.002
823.69	0.002
823.87	0.002
824.06	0.002
824.24	0.001
824.43	0.002
824.61	0.002
824.80	0.002
824.98	0.002
825.17	0.001
825.35	0.001
825.54	0.001
825.72	0.001
825.91	0.001
826.09	0.001
826.28	0.001
826.46	0.001
826.64	0.001
826.83	0.001
827.01	0.000
827.20	0.000
827.38	0.000
827.57	0.000
827.75	0.000
827.94	0.000
828.12	0.000
828.31	-0.000
828.49	-0.000
828.67	-0.001
828.86	-0.001
829.04	-0.001
829.23	-0.001
829.41	-0.001
829.60	-0.001
829.78	-0.001
829.96	-0.001
830.15	-0.001
830.33	-0.001
830.52	-0.001
830.70	-0.001
830.88	-0.001
831.07	-0.002
831.25	-0.002
831.44	-0.002
831.62	-0.002
831.81	-0.002
831.99	-0.002
832.17	-0.002
832.36	-0.002
832.54	-0.002
832.73	-0.002
832.91	-0.003
833.09	-0.002
833.28	-0.003
833.46	-0.003
833.65	-0.003
833.83	-0.003
834.01	-0.003
834.20	-0.003
834.38	-0.003
834.56	-0.003
834.75	-0.003
834.93	-0.003
835.12	-0.003
835.30	-0.003
835.48	-0.003
835.67	-0.003
835.85	-0.003
836.03	-0.004
836.22	-0.004
836.40	-0.004
836.59	-0.004
836.77	-0.004
836.95	-0.004
837.14	-0.004
837.32	-0.004
837.50	-0.004
837.69	-0.004
837.87	-0.004
838.05	-0.003
838.24	-0.003
838.42	-0.003
838.60	-0.003
838.79	-0.003
838.97	-0.003
839.15	-0.003
839.34	-0.003
839.52	-0.004
839.70	-0.004
839.89	-0.004
840.07	-0.004
840.25	-0.004
840.44	-0.005
840.62	-0.005
840.80	-0.005
840.99	-0.004
841.17	-0.005
841.35	-0.004
841.54	-0.004
841.72	-0.004
841.90	-0.004
842.09	-0.004
842.27	-0.005
842.45	-0.004
842.64	-0.005
842.82	-0.005
843.00	-0.005
843.19	-0.005
843.37	-0.005
843.55	-0.005
843.73	-0.005
843.92	-0.005
844.10	-0.005
844.28	-0.005
844.47	-0.005
844.65	-0.005
844.83	-0.004
845.01	-0.004
845.20	-0.004
845.38	-0.004
845.56	-0.004
845.75	-0.004
845.93	-0.005
846.11	-0.005
846.29	-0.004
846.48	-0.005
846.66	-0.005
846.84	-0.005
847.02	-0.005
847.21	-0.005
847.39	-0.004
847.57	-0.005
847.76	-0.004
847.94	-0.004
848.12	-0.004
848.30	-0.005
848.49	-0.005
848.67	-0.005
848.85	-0.005
849.03	-0.005
849.22	-0.005
849.40	-0.005
849.58	-0.005
849.76	-0.006
849.95	-0.005
850.13	-0.005
850.31	-0.005
850.49	-0.005
850.67	-0.005
850.86	-0.005
851.04	-0.005
851.22	-0.005
851.40	-0.005
851.59	-0.005
851.77	-0.005
851.95	-0.005
852.13	-0.006
852.31	-0.006
852.50	-0.005
852.68	-0.006
852.86	-0.006
853.04	-0.006
853.23	-0.006
853.41	-0.006
853.59	-0.006
853.77	-0.006
853.95	-0.006
854.14	-0.006
854.32	-0.006
854.50	-0.006
854.68	-0.006
854.86	-0.006
855.04	-0.006
855.23	-0.006
855.41	-0.006
855.59	-0.006
855.77	-0.006
855.95	-0.006
856.14	-0.006
856.32	-0.006
856.50	-0.006
856.68	-0.006
856.86	-0.007
857.04	-0.007
857.23	-0.007
857.41	-0.007
857.59	-0.007
857.77	-0.007
857.95	-0.007
858.13	-0.007
858.32	-0.006
858.50	-0.006
858.68	-0.006
858.86	-0.007
859.04	-0.007
859.22	-0.006
859.41	-0.007
859.59	-0.007
859.77	-0.007
859.95	-0.007
860.13	-0.007
860.31	-0.007
860.49	-0.007
860.68	-0.007
860.86	-0.006
861.04	-0.007
861.22	-0.007
861.40	-0.007
861.58	-0.007
861.76	-0.007
861.94	-0.007
862.13	-0.007
862.31	-0.006
862.49	-0.006
862.67	-0.006
862.85	-0.007
863.03	-0.006
863.21	-0.006
863.39	-0.006
863.57	-0.006
863.76	-0.006
863.94	-0.006
864.12	-0.006
864.30	-0.006
864.48	-0.007
864.66	-0.006
864.84	-0.007
865.02	-0.007
865.20	-0.007
865.38	-0.007
865.57	-0.007
865.75	-0.006
865.93	-0.006
866.11	-0.007
866.29	-0.006
866.47	-0.006
866.65	-0.006
866.83	-0.006
867.01	-0.006
867.19	-0.006
867.37	-0.006
867.55	-0.006
867.73	-0.006
867.92	-0.006
868.10	-0.005
868.28	-0.006
868.46	-0.005
868.64	-0.005
868.82	-0.005
869.00	-0.005
869.18	-0.005
869.36	-0.005
869.54	-0.005
869.72	-0.005
869.90	-0.005
870.08	-0.005
870.26	-0.005
870.44	-0.005
870.62	-0.004
870.80	-0.004
870.98	-0.004
871.16	-0.004
871.34	-0.003
871.53	-0.003
871.71	-0.003
871.89	-0.003
872.07	-0.003
872.25	-0.003
872.43	-0.003
872.61	-0.003
872.79	-0.003
872.97	-0.003
873.15	-0.002
873.33	-0.002
873.51	-0.002
873.69	-0.002
873.87	-0.002
874.05	-0.002
874.23	-0.002
874.41	-0.002
874.59	-0.002
874.77	-0.002
874.95	-0.002
875.13	-0.002
875.31	-0.001
875.49	-0.002
875.67	-0.002
875.85	-0.002
876.03	-0.002
876.21	-0.002
876.39	-0.002
876.57	-0.002
876.75	-0.003
876.93	-0.003
877.11	-0.003
877.29	-0.004
877.47	-0.004
877.65	-0.004
877.82	-0.004
878.00	-0.004
878.18	-0.003
878.36	-0.003
878.54	-0.004
878.72	-0.003
878.90	-0.003
879.08	-0.003
879.26	-0.003
879.44	-0.003
879.62	-0.003
879.80	-0.003
879.98	-0.003
880.16	-0.004
880.34	-0.004
880.52	-0.003
880.70	-0.004
880.88	-0.004
881.06	-0.004
881.24	-0.004
881.42	-0.004
881.59	-0.004
881.77	-0.004
881.95	-0.004
882.13	-0.005
882.31	-0.005
882.49	-0.005
882.67	-0.005
882.85	-0.004
883.03	-0.004
883.21	-0.004
883.39	-0.004
883.57	-0.004
883.75	-0.004
883.92	-0.004
884.10	-0.004
884.28	-0.004
884.46	-0.004
884.64	-0.004
884.82	-0.004
885.00	-0.004
885.18	-0.004
885.36	-0.004
885.54	-0.005
885.71	-0.005
885.89	-0.005
886.07	-0.005
886.25	-0.004
886.43	-0.004
886.61	-0.004
886.79	-0.004
886.97	-0.004
887.15	-0.004
887.32	-0.004
887.50	-0.004
887.68	-0.004
887.86	-0.005
888.04	-0.005
888.22	-0.005
888.40	-0.005
888.57	-0.005
888.75	-0.005
888.93	-0.005
889.11	-0.005
889.29	-0.005
889.47	-0.005
889.65	-0.005
889.82	-0.004
890.00	-0.005
890.18	-0.004
890.36	-0.004
890.54	-0.004
890.72	-0.004
890.90	-0.004
891.07	-0.004
891.25	-0.004
891.43	-0.004
891.61	-0.004
891.79	-0.003
891.97	-0.003
892.14	-0.003
892.32	-0.003
892.50	-0.003
892.68	-0.003
892.86	-0.002
893.03	-0.002
893.21	-0.002
893.39	-0.002
893.57	-0.002
893.75	-0.002
893.93	-0.002
894.10	-0.002
894.28	-0.001
894.46	-0.001
894.64	-0.001
894.82	-0.001
894.99	-0.001
895.17	-0.001
895.35	-0.001
895.53	-0.001
895.71	-0.001
895.88	-0.001
896.06	-0.002
896.24	-0.002
896.42	-0.002
896.59	-0.002
896.77	-0.002
896.95	-0.002
897.13	-0.002
897.31	-0.002
897.48	-0.002
897.66	-0.002
897.84	-0.002
898.02	-0.002
898.19	-0.002
898.37	-0.002
898.55	-0.002
898.73	-0.002
898.91	-0.002
899.08	-0.002
899.26	-0.002
899.44	-0.002
899.62	-0.002
899.79	-0.002
899.97	-0.002
900.15	-0.002
900.33	-0.002
900.50	-0.002
900.68	-0.001
900.86	-0.001
901.04	-0.001
901.21	-0.001
901.39	-0.001
901.57	-0.001
901.74	-0.001
901.92	-0.001
902.10	-0.001
902.28	-0.001
902.45	-0.001
902.63	-0.001
902.81	-0.001
902.99	-0.001
903.16	-0.001
903.34	-0.001
903.52	-0.000
903.69	-0.001
903.87	-0.001
904.05	-0.000
904.22	-0.000
904.40	-0.000
904.58	0.000
904.76	0.001
904.93	0.001
905.11	0.001
905.29	0.001
905.46	0.001
905.64	0.001
905.82	0.002
905.99	0.002
906.17	0.002
906.35	0.002
906.53	0.003
906.70	0.003
906.88	0.003
907.06	0.004
907.23	0.004
907.41	0.004
907.59	0.004
907.76	0.004
907.94	0.005
908.12	0.005
908.29	0.006
908.47	0.006
908.65	0.006
908.82	0.007
909.00	0.007
909.18	0.007
909.35	0.007
909.53	0.008
909.71	0.008
909.88	0.008
910.06	0.009
910.23	0.009
910.41	0.009
910.59	0.010
910.76	0.010
910.94	0.010
911.12	0.011
911.29	0.011
911.47	0.011
911.65	0.011
911.82	0.012
912.00	0.012
912.17	0.012
912.35	0.012
912.53	0.012
912.70	0.012
912.88	0.012
913.06	0.013
913.23	0.013
913.41	0.013
913.58	0.014
913.76	0.014
913.94	0.015
914.11	0.015
914.29	0.015
914.46	0.015
914.64	0.015
914.82	0.016
914.99	0.016
915.17	0.016
915.34	0.017
915.52	0.017
915.70	0.017
915.87	0.017
916.05	0.018
916.22	0.018
916.40	0.018
916.57	0.019
916.75	0.019
916.93	0.019
917.10	0.019
917.28	0.020
917.45	0.020
917.63	0.020
917.80	0.020
917.98	0.021
918.16	0.021
918.33	0.022
918.51	0.022
918.68	0.022
918.86	0.023
919.03	0.023
919.21	0.023
919.39	0.024
919.56	0.024
919.74	0.024
919.91	0.025
920.09	0.025
920.26	0.025
920.44	0.025
920.61	0.025
920.79	0.026
920.96	0.026
921.14	0.026
921.31	0.026
921.49	0.026
921.67	0.027
921.84	0.027
922.02	0.027
922.19	0.027
922.37	0.028
922.54	0.028
922.72	0.028
922.89	0.029
923.07	0.029
923.24	0.029
923.42	0.030
923.59	0.030
923.77	0.030
923.94	0.030
924.12	0.031
924.29	0.031
924.47	0.031
924.64	0.032
924.82	0.032
924.99	0.032
925.17	0.032
925.34	0.032
925.52	0.032
925.69	0.033
925.87	0.033
926.04	0.033
926.22	0.033
926.39	0.033
926.57	0.033
926.74	0.033
926.91	0.033
927.09	0.033
927.26	0.033
927.44	0.033
927.61	0.033
927.79	0.032
927.96	0.032
928.14	0.032
928.31	0.032
928.49	0.031
928.66	0.031
928.84	0.031
929.01	0.030
929.18	0.030
929.36	0.030
929.53	0.030
929.71	0.029
929.88	0.029
930.06	0.029
930.23	0.028
930.41	0.028
930.58	0.027
930.75	0.027
930.93	0.027
931.10	0.026
931.28	0.025
931.45	0.025
931.63	0.024
931.80	0.023
931.97	0.022
932.15	0.021
932.32	0.020
932.50	0.020
932.67	0.019
932.84	0.018
933.02	0.017
933.19	0.016
933.37	0.015
933.54	0.014
933.71	0.013
933.89	0.012
934.06	0.011
934.24	0.010
934.41	0.008
934.58	0.007
934.76	0.006
934.93	0.005
935.11	0.004
935.28	0.003
935.45	0.002
935.63	0.000
935.80	-0.001
935.98	-0.002
936.15	-0.003
936.32	-0.004
936.50	-0.005
936.67	-0.007
936.84	-0.008
937.02	-0.010
937.19	-0.011
937.36	-0.013
937.54	-0.014
937.71	-0.015
937.89	-0.017
938.06	-0.018
938.23	-0.019
938.41	-0.021
938.58	-0.022
938.75	-0.024
938.93	-0.025
939.10	-0.026
939.27	-0.027
939.45	-0.029
939.62	-0.030
939.79	-0.032
939.97	-0.033
940.14	-0.035
940.31	-0.036
940.49	-0.038
940.66	-0.039
940.83	-0.040
941.01	-0.042
941.18	-0.043
941.35	-0.044
941.53	-0.045
941.70	-0.046
941.87	-0.048
942.05	-0.049
942.22	-0.051
942.39	-0.052
942.57	-0.053
942.74	-0.054
942.91	-0.056
943.08	-0.057
943.26	-0.058
943.43	-0.060
943.60	-0.061
943.78	-0.062
943.95	-0.063
944.12	-0.064
944.29	-0.066
944.47	-0.067
944.64	-0.069
944.81	-0.070
944.99	-0.071
945.16	-0.073
945.33	-0.074
945.50	-0.075
945.68	-0.077
945.85	-0.078
946.02	-0.079
946.20	-0.081
946.37	-0.082
946.54	-0.083
946.71	-0.084
946.89	-0.085
947.06	-0.086
947.23	-0.087
947.40	-0.089
947.58	-0.090
947.75	-0.092
947.92	-0.093
948.09	-0.094
948.27	-0.096
948.44	-0.097
948.61	-0.098
948.78	-0.100
948.96	-0.101
949.13	-0.102
949.30	-0.104
949.47	-0.105
949.65	-0.107
949.82	-0.108
949.99	-0.109
950.16	-0.111
950.33	-0.112
950.51	-0.114
950.68	-0.116
950.85	-0.117
951.02	-0.119
951.20	-0.120
951.37	-0.121
951.54	-0.122
951.71	-0.124
951.88	-0.125
952.06	-0.126
952.23	-0.128
952.40	-0.129
952.57	-0.130
952.74	-0.131
952.92	-0.133
953.09	-0.135
953.26	-0.136
953.43	-0.137
953.60	-0.139
953.77	-0.140
953.95	-0.141
954.12	-0.143
954.29	-0.144
954.46	-0.146
954.63	-0.147
954.81	-0.148
954.98	-0.149
955.15	-0.151
955.32	-0.152
955.49	-0.154
955.66	-0.155
955.84	-0.156
956.01	-0.158
956.18	-0.159
956.35	-0.160
956.52	-0.161
956.69	-0.162
956.87	-0.163
957.04	-0.164
957.21	-0.165
957.38	-0.166
957.55	-0.167
957.72	-0.168
957.89	-0.169
958.07	-0.169
958.24	-0.170
958.41	-0.171
958.58	-0.172
958.75	-0.173
958.92	-0.174
959.09	-0.175
959.26	-0.176
959.44	-0.176
959.61	-0.178
959.78	-0.178
959.95	-0.179
960.12	-0.180
960.29	-0.180
960.46	-0.181
960.63	-0.182
960.81	-0.182
960.98	-0.182
961.15	-0.183
961.32	-0.184
961.49	-0.184
961.66	-0.185
961.83	-0.185
962.00	-0.186
962.17	-0.186
962.34	-0.186
962.52	-0.187
962.69	-0.187
962.86	-0.187
963.03	-0.187
963.20	-0.188
963.37	-0.189
963.54	-0.189
963.71	-0.189
963.88	-0.189
964.05	-0.190
964.22	-0.190
964.39	-0.190
964.56	-0.190
964.74	-0.191
964.91	-0.192
965.08	-0.191
965.25	-0.191
965.42	-0.192
965.59	-0.191
965.76	-0.191
965.93	-0.192
966.10	-0.192
966.27	-0.192
966.44	-0.192
966.61	-0.192
966.78	-0.192
966.95	-0.192
967.12	-0.193
967.29	-0.193
967.46	-0.193
967.63	-0.194
967.80	-0.193
967.97	-0.194
968.14	-0.194
968.32	-0.194
968.49	-0.194
968.66	-0.194
968.83	-0.194
969.00	-0.194
969.17	-0.194
969.34	-0.194
969.51	-0.194
969.68	-0.194
969.85	-0.194
970.02	-0.195
970.19	-0.194
970.36	-0.195
970.53	-0.196
970.70	-0.196
970.87	-0.196
971.04	-0.197
971.21	-0.197
971.38	-0.197
971.55	-0.198
971.72	-0.198
971.89	-0.198
972.06	-0.199
972.23	-0.199
972.40	-0.199
972.57	-0.199
972.74	-0.199
972.91	-0.199
973.07	-0.199
973.24	-0.200
973.41	-0.199
973.58	-0.199
973.75	-0.198
973.92	-0.199
974.09	-0.199
974.26	-0.199
974.43	-0.198
974.60	-0.199
974.77	-0.199
974.94	-0.198
975.11	-0.198
975.28	-0.198
975.45	-0.198
975.62	-0.198
975.79	-0.198
975.96	-0.198
976.13	-0.198
976.30	-0.198
976.47	-0.198
976.64	-0.199
976.80	-0.199
976.97	-0.199
977.14	-0.199
977.31	-0.199
977.48	-0.199
977.65	-0.198
977.82	-0.198
977.99	-0.198
978.16	-0.198
978.33	-0.198
978.50	-0.198
978.67	-0.197
978.83	-0.197
979.00	-0.197
979.17	-0.197
979.34	-0.197
979.51	-0.196
979.68	-0.197
979.85	-0.196
980.02	-0.196
980.19	-0.196
980.36	-0.196
980.52	-0.196
980.69	-0.196
980.86	-0.196
981.03	-0.196
981.20	-0.196
981.37	-0.196
981.54	-0.195
981.71	-0.195
981.88	-0.195
982.04	-0.194
982.21	-0.194
982.38	-0.194
982.55	-0.194
982.72	-0.193
982.89	-0.193
983.06	-0.193
983.22	-0.193
983.39	-0.192
983.56	-0.192
983.73	-0.192
983.90	-0.193
984.07	-0.192
984.24	-0.192
984.40	-0.191
984.57	-0.191
984.74	-0.191
984.91	-0.191
985.08	-0.190
985.25	-0.190
985.41	-0.190
985.58	-0.190
985.75	-0.190
985.92	-0.189
986.09	-0.189
986.26	-0.188
986.42	-0.188
986.59	-0.188
986.76	-0.187
986.93	-0.188
987.10	-0.188
987.27	-0.187
987.43	-0.187
987.60	-0.186
987.77	-0.186
987.94	-0.185
988.11	-0.185
988.27	-0.185
988.44	-0.184
988.61	-0.183
988.78	-0.183
988.95	-0.181
989.11	-0.181
989.28	-0.181
989.45	-0.181
989.62	-0.181
989.79	-0.181
989.95	-0.180
990.12	-0.180
990.29	-0.180
990.46	-0.180
990.62	-0.180
990.79	-0.180
990.96	-0.179
991.13	-0.179
991.30	-0.179
991.46	-0.177
991.63	-0.177
991.80	-0.176
991.97	-0.175
992.13	-0.175
992.30	-0.174
992.47	-0.174
992.64	-0.174
992.80	-0.174
992.97	-0.173
993.14	-0.173
993.31	-0.172
993.47	-0.173
993.64	-0.172
993.81	-0.172
993.98	-0.171
994.14	-0.171
994.31	-0.171
994.48	-0.170
994.64	-0.169
994.81	-0.170
994.98	-0.169
995.15	-0.169
995.31	-0.168
995.48	-0.168
995.65	-0.167
995.82	-0.167
995.98	-0.167
996.15	-0.166
996.32	-0.166
996.48	-0.166
996.65	-0.164
996.82	-0.164
996.99	-0.163
997.15	-0.163
997.32	-0.163
997.49	-0.163
997.65	-0.162
997.82	-0.162
997.99	-0.161
998.15	-0.161
998.32	-0.160
998.49	-0.160
998.65	-0.160
998.82	-0.160
998.99	-0.159
999.15	-0.158
999.32	-0.158
999.49	-0.158
999.65	-0.156
999.82	-0.156
999.99	-0.155
1000.15	-0.155
1000.32	-0.155
1000.49	-0.154
1000.65	-0.154
1000.82	-0.154
1000.99	-0.153
1001.15	-0.153
1001.32	-0.152
1001.49	-0.152
1001.65	-0.152
1001.82	-0.152
1001.99	-0.151
1002.15	-0.150
1002.32	-0.149
1002.49	-0.149
1002.65	-0.149
1002.82	-0.148
1002.99	-0.148
1003.15	-0.148
1003.32	-0.147
1003.48	-0.147
1003.65	-0.146
1003.82	-0.146
1003.98	-0.146
1004.15	-0.145
1004.32	-0.144
1004.48	-0.143
1004.65	-0.142
1004.81	-0.141
1004.98	-0.140
1005.15	-0.140
1005.31	-0.139
1005.48	-0.138
1005.64	-0.137
1005.81	-0.137
1005.98	-0.137
1006.14	-0.137
1006.31	-0.136
1006.47	-0.136
1006.64	-0.136
1006.81	-0.135
1006.97	-0.135
1007.14	-0.135
1007.30	-0.135
1007.47	-0.135
1007.63	-0.133
1007.80	-0.133
1007.97	-0.133
1008.13	-0.132
1008.30	-0.132
1008.46	-0.131
1008.63	-0.131
1008.79	-0.130
1008.96	-0.129
1009.13	-0.128
1009.29	-0.127
1009.46	-0.126
1009.62	-0.126
1009.79	-0.125
1009.95	-0.125
1010.12	-0.124
1010.28	-0.124
1010.45	-0.123
1010.62	-0.123
1010.78	-0.123
1010.95	-0.122
1011.11	-0.121
1011.28	-0.121
1011.44	-0.120
1011.61	-0.119
1011.77	-0.118
1011.94	-0.118
1012.10	-0.118
1012.27	-0.117
1012.43	-0.116
1012.60	-0.116
1012.76	-0.116
1012.93	-0.116
1013.10	-0.115
1013.26	-0.115
1013.43	-0.114
1013.59	-0.113
1013.76	-0.113
1013.92	-0.112
1014.09	-0.111
1014.25	-0.110
1014.42	-0.109
1014.58	-0.108
1014.75	-0.107
1014.91	-0.106
1015.08	-0.106
1015.24	-0.106
1015.41	-0.105
1015.57	-0.105
1015.73	-0.105
1015.90	-0.105
1016.06	-0.105
1016.23	-0.104
1016.39	-0.104
1016.56	-0.104
1016.72	-0.104
1016.89	-0.104
1017.05	-0.104
1017.22	-0.104
1017.38	-0.102
1017.55	-0.102
1017.71	-0.101
1017.88	-0.101
1018.04	-0.101
1018.21	-0.100
1018.37	-0.099
1018.53	-0.098
1018.70	-0.097
1018.86	-0.096
1019.03	-0.096
1019.19	-0.096
1019.36	-0.096
1019.52	-0.096
1019.69	-0.095
1019.85	-0.094
1020.01	-0.093
1020.18	-0.093
1020.34	-0.093
1020.51	-0.093
1020.67	-0.094
1020.84	-0.093
1021.00	-0.093
1021.16	-0.091
1021.33	-0.090
1021.49	-0.089
1021.66	-0.089
1021.82	-0.089
1021.98	-0.088
1022.15	-0.087
1022.31	-0.087
1022.48	-0.086
1022.64	-0.086
1022.80	-0.085
1022.97	-0.086
1023.13	-0.086
1023.30	-0.086
1023.46	-0.086
1023.62	-0.086
1023.79	-0.086
1023.95	-0.086
1024.12	-0.085
1024.28	-0.085
1024.44	-0.085
1024.61	-0.084
1024.77	-0.084
1024.93	-0.084
1025.10	-0.083
1025.26	-0.082
1025.43	-0.082
1025.59	-0.081
1025.75	-0.080
1025.92	-0.080
1026.08	-0.080
1026.24	-0.079
1026.41	-0.079
1026.57	-0.078
1026.73	-0.078
1026.90	-0.078
1027.06	-0.077
1027.23	-0.077
1027.39	-0.077
1027.55	-0.076
1027.72	-0.076
1027.88	-0.075
1028.04	-0.074
1028.21	-0.073
1028.37	-0.073
1028.53	-0.072
1028.70	-0.071
1028.86	-0.071
1029.02	-0.070
1029.19	-0.070
1029.35	-0.070
1029.51	-0.069
1029.67	-0.068
1029.84	-0.068
1030.00	-0.067
1030.16	-0.067
1030.33	-0.067
1030.49	-0.066
1030.65	-0.065
1030.82	-0.065
1030.98	-0.065
1031.14	-0.064
1031.31	-0.064
1031.47	-0.063
1031.63	-0.064
1031.79	-0.062
1031.96	-0.063
1032.12	-0.063
1032.28	-0.062
1032.45	-0.061
1032.61	-0.062
1032.77	-0.061
1032.93	-0.061
1033.10	-0.060
1033.26	-0.059
1033.42	-0.058
1033.58	-0.057
1033.75	-0.055
1033.91	-0.054
1034.07	-0.054
1034.24	-0.053
1034.40	-0.052
1034.56	-0.051
1034.72	-0.050
1034.89	-0.051
1035.05	-0.050
1035.21	-0.050
1035.37	-0.051
1035.54	-0.052
1035.70	-0.051
1035.86	-0.051
1036.02	-0.050
1036.19	-0.050
1036.35	-0.050
1036.51	-0.049
1036.67	-0.050
1036.83	-0.050
1037.00	-0.050
1037.16	-0.049
1037.32	-0.050
1037.48	-0.051
1037.65	-0.050
1037.81	-0.051
1037.97	-0.050
1038.13	-0.050
1038.29	-0.049
1038.46	-0.049
1038.62	-0.049
1038.78	-0.050
1038.94	-0.050
1039.10	-0.049
1039.27	-0.049
1039.43	-0.050
1039.59	-0.047
1039.75	-0.047
1039.91	-0.047
1040.08	-0.047
1040.24	-0.048
1040.40	-0.046
1040.56	-0.045
1040.72	-0.044
1040.89	-0.042
1041.05	-0.041
1041.21	-0.041
1041.37	-0.041
1041.53	-0.041
1041.69	-0.040
1041.86	-0.040
1042.02	-0.039
1042.18	-0.040
1042.34	-0.039
1042.50	-0.040
1042.66	-0.041
1042.83	-0.042
1042.99	-0.041
1043.15	-0.042
1043.31	-0.042
1043.47	-0.043
1043.63	-0.043
1043.79	-0.044
1043.96	-0.043
1044.12	-0.044
1044.28	-0.043
1044.44	-0.043
1044.60	-0.042
1044.76	-0.043
1044.92	-0.042
1045.09	-0.041
1045.25	-0.041
1045.41	-0.040
1045.57	-0.040
1045.73	-0.040
1045.89	-0.042
1046.05	-0.042
1046.21	-0.042
1046.38	-0.039
1046.54	-0.046
1046.70	-0.065
1046.86	-0.035
>>>>>End Processed Spectral Data<<<<<
